<?xml version="1.0" encoding="utf-8"?>
<Bundle xmlns="http://hl7.org/fhir">
    <id value="60f3d654-0a8c-457a-baf1-c3021f55cea5" />
    <type value="collection" />
    <timestamp value="2023-03-07T15:41:28.916+00:00" />
    <entry>
        <fullUrl value="https://erp.zentral.erp.splitdns.ti-dienste.de/ChargeItem/200.086.824.605.539.20" />
        <resource>
            <ChargeItem>
                <id value="200.086.824.605.539.20" />
                <meta>
                    <profile value="https://gematik.de/fhir/erpchrg/StructureDefinition/GEM_ERPCHRG_PR_ChargeItem|1.0" />
                </meta>
                <identifier>
                    <system value="https://gematik.de/fhir/erp/NamingSystem/GEM_ERP_NS_PrescriptionId" />
                    <value value="200.086.824.605.539.20" />
                </identifier>
                <status value="billable" />
                <code>
                    <coding>
                        <system value="http://terminology.hl7.org/CodeSystem/data-absent-reason" />
                        <code value="not-applicable" />
                    </coding>
                </code>
                <subject>
                    <identifier>
                        <system value="http://fhir.de/sid/pkv/kvid-10" />
                        <value value="X234567890" />
                    </identifier>
                </subject>
                <enterer>
                    <identifier>
                        <system value="https://gematik.de/fhir/sid/telematik-id" />
                        <value value="3-15.2.1456789123.191" />
                    </identifier>
                </enterer>
                <enteredDate value="2022-06-01T07:13:00+05:00" />
                <supportingInformation>
                    <reference value="urn:uuid:c86f5600-0000-0000-0001-000000000000" />
                    <display value="https://fhir.kbv.de/StructureDefinition/KBV_PR_ERP_Bundle" />
                </supportingInformation>
                <supportingInformation>
                    <reference value="urn:uuid:c86f5600-0000-0000-0004-000000000000" />
                    <display value="http://fhir.abda.de/eRezeptAbgabedaten/StructureDefinition/DAV-PKV-PR-ERP-AbgabedatenBundle" />
                </supportingInformation>
            </ChargeItem>
        </resource>
    </entry>
    <entry>
        <fullUrl value="urn:uuid:c86f5600-0000-0000-0004-000000000000" />
        <resource>
            <Bundle>
                <id value="abc825bc-bc30-45f8-b109-1b343fff5c45" />
                <meta>
                    <profile value="http://fhir.abda.de/eRezeptAbgabedaten/StructureDefinition/DAV-PKV-PR-ERP-AbgabedatenBundle|1.2"/>
                    <tag>
                        <display value="ACHTUNG! Der fachlich korrekte Inhalt der Beispielinstanz kann nicht gewährleistet werden. Wir sind jederzeit dankbar für Hinweise auf Fehler oder für Verbesserungsvorschläge."/>
                    </tag>
                </meta>
                <identifier>
                    <system value="https://gematik.de/fhir/erp/NamingSystem/GEM_ERP_NS_PrescriptionId"/>
                    <value value="200.086.824.605.539.20"/>
                </identifier>
                <type value="document"/>
                <timestamp value="2023-07-03T11:30:00Z"/>
                <entry>
                    <fullUrl value="urn:uuid:a6deb8d4-a41e-484f-b1aa-47c8a96d88fd"/>
                    <resource>
                        <Composition>
                            <id value="a6deb8d4-a41e-484f-b1aa-47c8a96d88fd"/>
                            <meta>
                                <profile value="http://fhir.abda.de/eRezeptAbgabedaten/StructureDefinition/DAV-PKV-PR-ERP-AbgabedatenComposition|1.2"/>
                            </meta>
                            <status value="final"/>
                            <type>
                                <coding>
                                    <system value="http://fhir.abda.de/eRezeptAbgabedaten/CodeSystem/DAV-CS-ERP-CompositionTypes"/>
                                    <code value="ERezeptAbgabedaten"/>
                                </coding>
                            </type>
                            <date value="2023-07-03T11:30:00Z"/>
                            <author>
                                <reference value="urn:uuid:016a3696-bb88-4e94-8f91-05146a04d028"/>
                            </author>
                            <title value="ERezeptAbgabedaten"/>
                            <section>
                                <title value="Abgabeinformationen"/>
                                <entry>
                                    <reference value="urn:uuid:1c79f862-2ca0-498b-be44-05b6bd6dc0f9"/>
                                </entry>
                            </section>
                            <section>
                                <title value="Apotheke"/>
                                <entry>
                                    <reference value="urn:uuid:016a3696-bb88-4e94-8f91-05146a04d028"/>
                                </entry>
                            </section>
                        </Composition>
                    </resource>
                </entry>
                <entry>
                    <fullUrl value="urn:uuid:016a3696-bb88-4e94-8f91-05146a04d028"/>
                    <resource>
                        <Organization>
                            <id value="016a3696-bb88-4e94-8f91-05146a04d028"/>
                            <meta>
                                <profile value="http://fhir.abda.de/eRezeptAbgabedaten/StructureDefinition/DAV-PKV-PR-ERP-Apotheke|1.2"/>
                            </meta>
                            <identifier>
                                <system value="http://fhir.de/sid/arge-ik/iknr"/>
                                <value value="308412345"/>
                            </identifier>
                            <name value="Adler-Apotheke"/>
                            <address>
                                <type value="physical"/>
                                <line value="Taunusstraße 89">
                                    <extension url="http://hl7.org/fhir/StructureDefinition/iso21090-ADXP-streetName">
                                        <valueString value="Taunusstraße"/>
                                    </extension>
                                    <extension url="http://hl7.org/fhir/StructureDefinition/iso21090-ADXP-houseNumber">
                                        <valueString value="89"/>
                                    </extension>
                                </line>
                                <city value="Langen"/>
                                <postalCode value="63225"/>
                                <country value="D"/>
                            </address>
                        </Organization>
                    </resource>
                </entry>
                <entry>
                    <fullUrl value="urn:uuid:1c79f862-2ca0-498b-be44-05b6bd6dc0f9"/>
                    <resource>
                        <MedicationDispense>
                            <id value="1c79f862-2ca0-498b-be44-05b6bd6dc0f9"/>
                            <meta>
                                <profile value="http://fhir.abda.de/eRezeptAbgabedaten/StructureDefinition/DAV-PKV-PR-ERP-Abgabeinformationen|1.2"/>
                            </meta>
                            <extension url="http://fhir.abda.de/eRezeptAbgabedaten/StructureDefinition/DAV-EX-ERP-Abrechnungszeilen">
                                <valueReference>
                                    <reference value="urn:uuid:7ac4e17b-b87f-43ab-a9dc-f3c191c1c15d"/>
                                </valueReference>
                            </extension>
                            <extension url="http://fhir.abda.de/eRezeptAbgabedaten/StructureDefinition/DAV-PKV-EX-ERP-AbrechnungsTyp">
                                <valueCodeableConcept>
                                    <coding>
                                        <system value="http://fhir.abda.de/eRezeptAbgabedaten/CodeSystem/DAV-PKV-CS-ERP-AbrechnungsTyp"/>
                                        <code value="1"/>
                                    </coding>
                                </valueCodeableConcept>
                            </extension>
                            <status value="completed"/>
                            <medicationCodeableConcept>
                                <coding>
                                    <system value="http://terminology.hl7.org/CodeSystem/data-absent-reason"/>
                                    <code value="not-applicable"/>
                                </coding>
                            </medicationCodeableConcept>
                            <performer>
                                <actor>
                                    <reference value="urn:uuid:016a3696-bb88-4e94-8f91-05146a04d028"/>
                                </actor>
                            </performer>
                            <authorizingPrescription>
                                <identifier>
                                    <system value="https://gematik.de/fhir/erp/NamingSystem/GEM_ERP_NS_PrescriptionId"/>
                                    <value value="200.086.824.605.539.20"/>
                                </identifier>
                            </authorizingPrescription>
                            <type>
                                <coding>
                                    <system value="http://fhir.abda.de/eRezeptAbgabedaten/CodeSystem/DAV-CS-ERP-MedicationDispenseTyp"/>
                                    <code value="Abgabeinformationen"/>
                                </coding>
                            </type>
                            <whenHandedOver value="2023-07-03"/>
                        </MedicationDispense>
                    </resource>
                </entry>
                <entry>
                    <fullUrl value="urn:uuid:7ac4e17b-b87f-43ab-a9dc-f3c191c1c15d"/>
                    <resource>
                        <Invoice>
                            <id value="7ac4e17b-b87f-43ab-a9dc-f3c191c1c15d"/>
                            <meta>
                                <profile value="http://fhir.abda.de/eRezeptAbgabedaten/StructureDefinition/DAV-PKV-PR-ERP-Abrechnungszeilen|1.2"/>
                            </meta>
                            <status value="issued"/>
                            <type>
                                <coding>
                                    <system value="http://fhir.abda.de/eRezeptAbgabedaten/CodeSystem/DAV-CS-ERP-InvoiceTyp"/>
                                    <code value="Abrechnungszeilen"/>
                                </coding>
                            </type>
                            <lineItem>
                                <sequence value="1"/>
                                <chargeItemCodeableConcept>
                                    <coding>
                                        <system value="http://fhir.de/CodeSystem/ifa/pzn"/>
                                        <code value="09494280"/>
                                    </coding>
                                    <text value="VENLAFAXIN Heumann 75 mg Tabletten 100 St"/>
                                </chargeItemCodeableConcept>
                                <priceComponent>
                                    <extension url="http://fhir.abda.de/eRezeptAbgabedaten/StructureDefinition/DAV-EX-ERP-MwStSatz">
                                        <valueDecimal value="19.00"/>
                                    </extension>
                                    <extension url="http://fhir.abda.de/eRezeptAbgabedaten/StructureDefinition/DAV-EX-ERP-KostenVersicherter">
                                        <extension url="Kategorie">
                                            <valueCodeableConcept>
                                                <coding>
                                                    <system value="http://fhir.abda.de/eRezeptAbgabedaten/CodeSystem/DAV-PKV-CS-ERP-KostenVersicherterKategorie"/>
                                                    <code value="0"/>
                                                </coding>
                                            </valueCodeableConcept>
                                        </extension>
                                        <extension url="Kostenbetrag">
                                            <valueMoney>
                                                <value value="0.00"/>
                                                <currency value="EUR"/>
                                            </valueMoney>
                                        </extension>
                                    </extension>
                                    <type value="informational"/>
                                    <factor value="1"/>
                                    <amount>
                                        <value value="31.40"/>
                                        <currency value="EUR"/>
                                    </amount>
                                </priceComponent>
                            </lineItem>
                            <totalGross>
                                <extension url="http://fhir.abda.de/eRezeptAbgabedaten/StructureDefinition/DAV-EX-ERP-Gesamtzuzahlung">
                                    <valueMoney>
                                        <value value="0.00"/>
                                        <currency value="EUR"/>
                                    </valueMoney>
                                </extension>
                                <value value="31.40"/>
                                <currency value="EUR"/>
                            </totalGross>
                        </Invoice>
                    </resource>
                </entry>
                <signature>
                    <type>
                        <system value="urn:iso-astm:E1762-95:2013" />
                        <code value="1.2.840.10065.1.12.1.1" />
                    </type>
                    <when value="2023-03-07T15:41:28.937+00:00" />
                    <who>
                        <reference value="https://erp.dev2.erezepttest.net//Device/1" />
                    </who>
                    <sigFormat value="application/pkcs7-mime" />
                    <data value="MII0vQ..." />
                </signature>
            </Bundle>
        </resource>
    </entry>
    <entry>
        <fullUrl value="urn:uuid:c86f5600-0000-0000-0001-000000000000" />
        <resource>
            <Bundle>
                <id value="a7008bf4-662f-46e8-89ab-ac339fc83c3d" />
                <meta>
                    <lastUpdated value="2022-05-31T14:57:35.688+02:00" />
                    <profile value="https://fhir.kbv.de/StructureDefinition/KBV_PR_ERP_Bundle|1.0.2" />
                </meta>
                <identifier>
                    <system value="https://gematik.de/fhir/NamingSystem/PrescriptionID" />
                    <value value="200.086.824.605.539.20" />
                </identifier>
                <type value="document" />
                <timestamp value="2022-05-31T14:57:35.689+02:00" />
                <entry>
                    <fullUrl value="https://pvs.gematik.de/fhir/Composition/7ebdcb09-edec-4017-a7df-e790b5bc8138" />
                    <resource>
                        <Composition>
                            <id value="7ebdcb09-edec-4017-a7df-e790b5bc8138" />
                            <meta>
                                <profile value="https://fhir.kbv.de/StructureDefinition/KBV_PR_ERP_Composition|1.0.2" />
                            </meta>
                            <extension url="https://fhir.kbv.de/StructureDefinition/KBV_EX_FOR_Legal_basis">
                                <valueCoding>
                                    <system value="https://fhir.kbv.de/CodeSystem/KBV_CS_SFHIR_KBV_STATUSKENNZEICHEN" />
                                    <code value="00" />
                                </valueCoding>
                            </extension>
                            <extension url="https://fhir.kbv.de/StructureDefinition/KBV_EX_FOR_PKV_Tariff">
                                <valueCoding>
                                    <system value="https://fhir.kbv.de/CodeSystem/KBV_CS_SFHIR_KBV_PKV_TARIFF" />
                                    <code value="01" />
                                </valueCoding>
                            </extension>
                            <status value="final" />
                            <type>
                                <coding>
                                    <system value="https://fhir.kbv.de/CodeSystem/KBV_CS_SFHIR_KBV_FORMULAR_ART" />
                                    <code value="e16A" />
                                </coding>
                            </type>
                            <subject>
                                <reference value="Patient/5691bb6d-36fe-48b0-97b7-f48bf7b0a395" />
                            </subject>
                            <date value="2022-05-31T14:57:35+02:00" />
                            <author>
                                <reference value="Practitioner/8aed3aa3-3d50-49d7-ba69-e707984c7c1c" />
                                <type value="Practitioner" />
                            </author>
                            <author>
                                <type value="Device" />
                                <identifier>
                                    <system value="https://fhir.kbv.de/NamingSystem/KBV_NS_FOR_Pruefnummer" />
                                    <value value="GEMATIK/410/2109/36/123" />
                                </identifier>
                            </author>
                            <title value="elektronische Arzneimittelverordnung" />
                            <custodian>
                                <reference value="Organization/7b02666d-b519-462d-b47b-8ec85203c25a" />
                            </custodian>
                            <section>
                                <code>
                                    <coding>
                                        <system value="https://fhir.kbv.de/CodeSystem/KBV_CS_ERP_Section_Type" />
                                        <code value="Coverage" />
                                    </coding>
                                </code>
                                <entry>
                                    <reference value="Coverage/65c00ca9-2998-42d2-8a2b-cfe548168b4d" />
                                </entry>
                            </section>
                            <section>
                                <code>
                                    <coding>
                                        <system value="https://fhir.kbv.de/CodeSystem/KBV_CS_ERP_Section_Type" />
                                        <code value="Prescription" />
                                    </coding>
                                </code>
                                <entry>
                                    <reference value="MedicationRequest/d89a83dd-7168-4e68-8ea6-3d093763f591" />
                                </entry>
                            </section>
                        </Composition>
                    </resource>
                </entry>
                <entry>
                    <fullUrl value="https://pvs.gematik.de/fhir/MedicationRequest/d89a83dd-7168-4e68-8ea6-3d093763f591" />
                    <resource>
                        <MedicationRequest>
                            <id value="d89a83dd-7168-4e68-8ea6-3d093763f591" />
                            <meta>
                                <profile value="https://fhir.kbv.de/StructureDefinition/KBV_PR_ERP_Prescription|1.0.2" />
                            </meta>
                            <extension url="https://fhir.kbv.de/StructureDefinition/KBV_EX_ERP_BVG">
                                <valueBoolean value="false" />
                            </extension>
                            <extension url="https://fhir.kbv.de/StructureDefinition/KBV_EX_ERP_EmergencyServicesFee">
                                <valueBoolean value="false" />
                            </extension>
                            <extension url="https://fhir.kbv.de/StructureDefinition/KBV_EX_ERP_Multiple_Prescription">
                                <extension url="Kennzeichen">
                                    <valueBoolean value="false" />
                                </extension>
                            </extension>
                            <extension url="https://fhir.kbv.de/StructureDefinition/KBV_EX_ERP_StatusCoPayment">
                                <valueCoding>
                                    <system value="https://fhir.kbv.de/CodeSystem/KBV_CS_ERP_StatusCoPayment" />
                                    <code value="0" />
                                </valueCoding>
                            </extension>
                            <status value="active" />
                            <intent value="order" />
                            <medicationReference>
                                <reference value="Medication/4521ce6e-27c3-4762-86db-e22bd4889918" />
                            </medicationReference>
                            <subject>
                                <reference value="Patient/5691bb6d-36fe-48b0-97b7-f48bf7b0a395" />
                            </subject>
                            <authoredOn value="2023-03-07" />
                            <requester>
                                <reference value="Practitioner/8aed3aa3-3d50-49d7-ba69-e707984c7c1c" />
                            </requester>
                            <insurance>
                                <reference value="Coverage/65c00ca9-2998-42d2-8a2b-cfe548168b4d" />
                            </insurance>
                            <dosageInstruction>
                                <extension url="https://fhir.kbv.de/StructureDefinition/KBV_EX_ERP_DosageFlag">
                                    <valueBoolean value="true" />
                                </extension>
                                <text value="1-0-0-0" />
                            </dosageInstruction>
                            <dispenseRequest>
                                <quantity>
                                    <value value="1" />
                                    <system value="http://unitsofmeasure.org" />
                                    <code value="{Package}" />
                                </quantity>
                            </dispenseRequest>
                            <substitution>
                                <allowedBoolean value="false" />
                            </substitution>
                        </MedicationRequest>
                    </resource>
                </entry>
                <entry>
                    <fullUrl value="https://pvs.gematik.de/fhir/Medication/4521ce6e-27c3-4762-86db-e22bd4889918" />
                    <resource>
                        <Medication>
                            <id value="4521ce6e-27c3-4762-86db-e22bd4889918" />
                            <meta>
                                <profile value="https://fhir.kbv.de/StructureDefinition/KBV_PR_ERP_Medication_PZN|1.0.2" />
                            </meta>
                            <extension url="https://fhir.kbv.de/StructureDefinition/KBV_EX_ERP_Medication_Category">
                                <valueCoding>
                                    <system value="https://fhir.kbv.de/CodeSystem/KBV_CS_ERP_Medication_Category" />
                                    <code value="00" />
                                </valueCoding>
                            </extension>
                            <extension url="https://fhir.kbv.de/StructureDefinition/KBV_EX_ERP_Medication_Vaccine">
                                <valueBoolean value="false" />
                            </extension>
                            <extension url="http://fhir.de/StructureDefinition/normgroesse">
                                <valueCode value="NB" />
                            </extension>
                            <code>
                                <coding>
                                    <system value="http://fhir.de/CodeSystem/ifa/pzn" />
                                    <code value="23456789" />
                                </coding>
                                <text value="Schmerzmittel" />
                            </code>
                            <form>
                                <coding>
                                    <system value="https://fhir.kbv.de/CodeSystem/KBV_CS_SFHIR_KBV_DARREICHUNGSFORM" />
                                    <code value="TAB" />
                                </coding>
                            </form>
                            <amount>
                                <numerator>
                                    <value value="1" />
                                    <unit value="Stk" />
                                </numerator>
                                <denominator>
                                    <value value="1" />
                                </denominator>
                            </amount>
                        </Medication>
                    </resource>
                </entry>
                <entry>
                    <fullUrl value="https://pvs.gematik.de/fhir/Patient/5691bb6d-36fe-48b0-97b7-f48bf7b0a395" />
                    <resource>
                        <Patient>
                            <id value="5691bb6d-36fe-48b0-97b7-f48bf7b0a395" />
                            <meta>
                                <profile value="https://fhir.kbv.de/StructureDefinition/KBV_PR_FOR_Patient|1.0.3" />
                            </meta>
                            <identifier>
                                <type>
                                    <coding>
                                        <system value="http://fhir.de/CodeSystem/identifier-type-de-basis" />
                                        <code value="PKV" />
                                    </coding>
                                </type>
                                <system value="http://www.acme.com/identifiers/patient" />
                                <value value="X276456719" />
                                <assigner>
                                    <reference value="Organization/30cd7fd9-40ea-4259-9fa7-131a7fb8c640" />
                                    <display value="KOA Sachsen-Anhalt" />
                                </assigner>
                            </identifier>
                            <name>
                                <use value="official" />
                                <family value="Angermänn" />
                                <given value="Günther" />
                            </name>
                            <birthDate value="1967-04-26" />
                            <address>
                                <type value="both" />
                                <line value="Pfeilshofstr. 28b 0 OG">
                                    <extension url="http://hl7.org/fhir/StructureDefinition/iso21090-ADXP-houseNumber">
                                        <valueString value="28b" />
                                    </extension>
                                    <extension url="http://hl7.org/fhir/StructureDefinition/iso21090-ADXP-streetName">
                                        <valueString value="Pfeilshofstr." />
                                    </extension>
                                </line>
                                <city value="Süd Madleendorf" />
                                <postalCode value="41956" />
                                <country value="D" />
                            </address>
                        </Patient>
                    </resource>
                </entry>
                <entry>
                    <fullUrl value="https://pvs.gematik.de/fhir/Organization/7b02666d-b519-462d-b47b-8ec85203c25a" />
                    <resource>
                        <Organization>
                            <id value="7b02666d-b519-462d-b47b-8ec85203c25a" />
                            <meta>
                                <profile value="https://fhir.kbv.de/StructureDefinition/KBV_PR_FOR_Organization|1.0.3" />
                            </meta>
                            <identifier>
                                <type>
                                    <coding>
                                        <system value="http://terminology.hl7.org/CodeSystem/v2-0203" />
                                        <code value="BSNR" />
                                    </coding>
                                </type>
                                <system value="https://fhir.kbv.de/NamingSystem/KBV_NS_Base_BSNR" />
                                <value value="714529330" />
                            </identifier>
                            <name value="Arztpraxis Schraßer" />
                            <telecom>
                                <system value="phone" />
                                <value value="+49-3832-34098496" />
                            </telecom>
                            <telecom>
                                <system value="email" />
                                <value value="nela.minah@neuendorf.org" />
                            </telecom>
                            <address>
                                <type value="both" />
                                <line value="Pastor-Louis-Str. 3 Zimmer 320">
                                    <extension url="http://hl7.org/fhir/StructureDefinition/iso21090-ADXP-houseNumber">
                                        <valueString value="3" />
                                    </extension>
                                    <extension url="http://hl7.org/fhir/StructureDefinition/iso21090-ADXP-streetName">
                                        <valueString value="Pastor-Louis-Str." />
                                    </extension>
                                </line>
                                <city value="Alt Lenjaburg" />
                                <postalCode value="11892" />
                                <country value="D" />
                            </address>
                        </Organization>
                    </resource>
                </entry>
                <entry>
                    <fullUrl value="https://pvs.gematik.de/fhir/Coverage/65c00ca9-2998-42d2-8a2b-cfe548168b4d" />
                    <resource>
                        <Coverage>
                            <id value="65c00ca9-2998-42d2-8a2b-cfe548168b4d" />
                            <meta>
                                <profile value="https://fhir.kbv.de/StructureDefinition/KBV_PR_FOR_Coverage|1.0.3" />
                            </meta>
                            <extension url="http://fhir.de/StructureDefinition/gkv/besondere-personengruppe">
                                <valueCoding>
                                    <system value="https://fhir.kbv.de/CodeSystem/KBV_CS_SFHIR_KBV_PERSONENGRUPPE" />
                                    <code value="00" />
                                </valueCoding>
                            </extension>
                            <extension url="http://fhir.de/StructureDefinition/gkv/dmp-kennzeichen">
                                <valueCoding>
                                    <system value="https://fhir.kbv.de/CodeSystem/KBV_CS_SFHIR_KBV_DMP" />
                                    <code value="00" />
                                </valueCoding>
                            </extension>
                            <extension url="http://fhir.de/StructureDefinition/gkv/wop">
                                <valueCoding>
                                    <system value="https://fhir.kbv.de/CodeSystem/KBV_CS_SFHIR_ITA_WOP" />
                                    <code value="01" />
                                </valueCoding>
                            </extension>
                            <extension url="http://fhir.de/StructureDefinition/gkv/versichertenart">
                                <valueCoding>
                                    <system value="https://fhir.kbv.de/CodeSystem/KBV_CS_SFHIR_KBV_VERSICHERTENSTATUS" />
                                    <code value="1" />
                                </valueCoding>
                            </extension>
                            <status value="active" />
                            <type>
                                <coding>
                                    <system value="http://fhir.de/CodeSystem/versicherungsart-de-basis" />
                                    <code value="PKV" />
                                </coding>
                            </type>
                            <beneficiary>
                                <reference value="Patient/a72d8dbe-9d99-46ab-821a-4e81b980b9e3" />
                            </beneficiary>
                            <payor>
                                <identifier>
                                    <system value="http://fhir.de/NamingSystem/arge-ik/iknr" />
                                    <value value="249753760" />
                                </identifier>
                                <display value="KOA Nordwürttemberg" />
                            </payor>
                        </Coverage>
                    </resource>
                </entry>
                <entry>
                    <fullUrl value="https://pvs.gematik.de/fhir/Practitioner/8aed3aa3-3d50-49d7-ba69-e707984c7c1c" />
                    <resource>
                        <Practitioner>
                            <id value="8aed3aa3-3d50-49d7-ba69-e707984c7c1c" />
                            <meta>
                                <profile value="https://fhir.kbv.de/StructureDefinition/KBV_PR_FOR_Practitioner|1.0.3" />
                            </meta>
                            <identifier>
                                <type>
                                    <coding>
                                        <system value="http://terminology.hl7.org/CodeSystem/v2-0203" />
                                        <code value="LANR" />
                                    </coding>
                                </type>
                                <system value="https://fhir.kbv.de/NamingSystem/KBV_NS_Base_ANR" />
                                <value value="222791803" />
                            </identifier>
                            <name>
                                <use value="official" />
                                <family value="Schraßer" />
                                <given value="Dr." />
                                <prefix value="Dr.">
                                    <extension url="http://hl7.org/fhir/StructureDefinition/iso21090-EN-qualifier">
                                        <valueCode value="AC" />
                                    </extension>
                                </prefix>
                            </name>
                            <qualification>
                                <code>
                                    <coding>
                                        <system value="https://fhir.kbv.de/CodeSystem/KBV_CS_FOR_Qualification_Type" />
                                        <code value="00" />
                                    </coding>
                                </code>
                            </qualification>
                            <qualification>
                                <code>
                                    <text value="Super-Facharzt für alles Mögliche" />
                                </code>
                            </qualification>
                        </Practitioner>
                    </resource>
                </entry>
                <entry>
                    <fullUrl value="https://pvs.gematik.de/fhir/Organization/30cd7fd9-40ea-4259-9fa7-131a7fb8c640" />
                    <resource>
                        <Organization>
                            <id value="30cd7fd9-40ea-4259-9fa7-131a7fb8c640" />
                            <meta>
                                <profile value="https://fhir.kbv.de/StructureDefinition/KBV_PR_FOR_Organization|1.0.3" />
                            </meta>
                            <identifier>
                                <system value="http://fhir.de/NamingSystem/arge-ik/iknr" />
                                <value value="760457211" />
                            </identifier>
                            <name value="KOA Sachsen-Anhalt" />
                            <telecom>
                                <system value="phone" />
                                <value value="(0693) 849005617" />
                            </telecom>
                        </Organization>
                    </resource>
                </entry>
                <signature>
                    <type>
                        <system value="urn:iso-astm:E1762-95:2013" />
                        <code value="1.2.840.10065.1.12.1.1" />
                    </type>
                    <when value="2023-03-07T15:41:28.934+00:00" />
                    <who>
                        <reference value="https://erp.dev2.erezepttest.net//Device/1" />
                    </who>
                    <sigFormat value="application/pkcs7-mime" />
                    <data value="MII1IgYJKo..." />
                </signature>
            </Bundle>
        </resource>
    </entry>
</Bundle>