{
  "version": 1,
  "signatureDate": "2025-04-22",
  "prescriptionID": "160.153.303.257.459_20250122",
  "medicationRequest": {
    "resourceType": "MedicationRequest",
    "id": "ExampleMedicationRequest-T",
    "status": "active",
    "intent": "order",
    "authoredOn": "2026-04-01",
    "medicationReference": {
      "reference": "Medication/ExampleMedication1-Paracetamol-T"
    },
    "dosageInstruction": [
      {
        "text": "1-1-1-1"
      }
    ],
    "subject": {
      "extension": [
        {
          "url": "http://hl7.org/fhir/StructureDefinition/data-absent-reason",
          "valueCode": "not-permitted"
        }
      ]
    },
    "dispenseRequest": {
      "quantity": {
        "value": 10,
        "unit": "Tablette"
      }
    },
    "extension": [
      {
        "url": "http://example.org/fhir/StructureDefinition/confirmations",
        "_url": {
          "extension": [
            {
              "url": "safetyMeasures",
              "valueBoolean": true
            },
            {
              "url": "informationMaterial",
              "valueBoolean": true
            },
            {
              "url": "offLabelUse",
              "valueBoolean": false
            },
            {
              "url": "prescriptionForWoman",
              "valueBoolean": false
            },
            {
              "url": "expertiseConfirmation",
              "valueBoolean": true
            }
          ]
        }
      }
    ]
  },
  "requestedMedication": {
    "resourceType": "Medication",
    "id": "ExampleMedication1-Paracetamol-T",
    "code": {
      "coding": [
        {
          "system": "http://www.whocc.no/atc",
          "code": "N02BE01",
          "display": "Paracetamol"
        }
      ],
      "text": "Paracetamol 500 mg Tabletten"
    },
    "form": {
      "coding": [
        {
          "system": "https://fhir.kbv.de/CodeSystem/KBV_CS_SFHIR_KBV_DARREICHUNGSFORM",
          "code": "TAB",
          "display": "Tablette"
        }
      ]
    }
  },
  "medicationDispense": {
    "resourceType": "MedicationDispense",
    "id": "ExampleMedicationDispense-T",
    "status": "completed",
    "medicationReference": {
      "reference": "Medication/ExampleMedication2-Ibuprofen-T"
    },
    "quantity": {
      "value": 10,
      "unit": "Tablette"
    },
    "dosageInstruction": [
      {
        "text": "1-1-1-1 nach Bedarf"
      }
    ],
    "whenHandedOver": "2026-04-02"
  },
  "dispensedMedication": {
    "resourceType": "Medication",
    "id": "ExampleMedication2-Ibuprofen-T",
    "code": {
      "coding": [
        {
          "system": "http://www.whocc.no/atc",
          "code": "M01AE01",
          "display": "Ibuprofen"
        }
      ],
      "text": "Ibuprofen 400 mg Tablette"
    },
    "form": {
      "coding": [
        {
          "system": "https://fhir.kbv.de/CodeSystem/KBV_CS_SFHIR_KBV_DARREICHUNGSFORM",
          "code": "TAB",
          "display": "Filmtablette"
        }
      ]
    }
  },
  "pharmacy": {
    "resourceType": "Organization",
    "id": "ExampleOrganization-T",
    "name": "Stadt-Apotheke",
    "address": [
      {
        "line": [
          "Hauptstraße 10"
        ],
        "city": "Beispielstadt",
        "postalCode": "54321",
        "country": "DE"
      }
    ],
    "telecom": [
      {
        "system": "phone",
        "value": "+49 987 6543210"
      }
    ]
  }
}